ID,Embodied,Dimension,Task,Expected,TrialNum,Result,Correct,ResponseTime
ID,Embodied,Dimension,Task,Expected,TrialNum,Result,Correct,ResponseTime
ID,Embodied,Dimension,Task,Expected,TrialNum,Result,Correct,ResponseTime
ID,Embodied,Dimension,Task,Expected,TrialNum,Result,Correct,ResponseTime
ID,Embodied,Dimension,Task,Expected,TrialNum,Result,Correct,ResponseTime
4,emb,3,correlation,Horonium&Radianite,1,Horonium&Versamina,False,5.056901
4,emb,3,correlation,Seastone&Space Titanium,2,Radianite&Versamina,False,10.84766
4,emb,2,correlation,Divinium (E115)&Silverstone,3,Seastone&Space Titanium,False,4.05135
ID,Embodied,Dimension,Task,Expected,TrialNum,Result,Correct,ResponseTime
4,emb,3,correlation,Horonium&Radianite,1,Administratium&Radianite,False,6.406878
4,emb,3,correlation,Seastone&Space Titanium,2,Seastone&Valkyrium,False,3.579951
4,emb,2,correlation,Divinium (E115)&Silverstone,3,Ceratanium&Divinium (E115),False,4.358993
4,emb,2,correlation,Aether&Hihiirokane,4,Aether&Chronoton,False,16.84962
ID,Embodied,Dimension,Task,Expected,TrialNum,Result,Correct,ResponseTime
4,emb,3,correlation,Horonium&Radianite,1,Horonium&Versamina,False,4.431787
4,emb,3,correlation,Seastone&Space Titanium,2,Seastone&Valkyrium,False,3.24437
4,emb,2,correlation,Divinium (E115)&Silverstone,3,Ceratanium&Dark Metal&Divinium (E115)&Silverstone&Taydenite,False,10.03944
ID,Embodied,Dimension,Task,Expected,TrialNum,Result,Correct,ResponseTime
ID,Embodied,Dimension,Task,Expected,TrialNum,Result,Correct,ResponseTime
ID,Embodied,Dimension,Task,Expected,TrialNum,Result,Correct,ResponseTime
ID,Embodied,Dimension,Task,Expected,TrialNum,Result,Correct,ResponseTime
ID,Embodied,Dimension,Task,Expected,TrialNum,Result,Correct,ResponseTime
ID,Embodied,Dimension,Task,Expected,TrialNum,Result,Correct,ResponseTime
ID,Embodied,Dimension,Task,Expected,TrialNum,Result,Correct,ResponseTime
ID,Embodied,Dimension,Task,Expected,TrialNum,Result,Correct,ResponseTime
ID,Embodied,Dimension,Task,Expected,TrialNum,Result,Correct,ResponseTime
ID,Embodied,Dimension,Task,Expected,TrialNum,Result,Correct,ResponseTime
ID,Embodied,Dimension,Task,Expected,TrialNum,Result,Correct,ResponseTime
ID,Embodied,Dimension,Task,Expected,TrialNum,Result,Correct,ResponseTime
ID,Embodied,Dimension,Task,Expected,TrialNum,Result,Correct,ResponseTime
ID,Embodied,Dimension,Task,Expected,TrialNum,Result,Correct,ResponseTime
ID,Embodied,Dimension,Task,Expected,TrialNum,Result,Correct,ResponseTime
ID,Embodied,Dimension,Task,Expected,TrialNum,Result,Correct,ResponseTime
ID,Embodied,Dimension,Task,Expected,TrialNum,Result,Correct,ResponseTime
ID,Embodied,Dimension,Task,Expected,TrialNum,Result,Correct,ResponseTime
ID,Embodied,Dimension,Task,Expected,TrialNum,Result,Correct,ResponseTime
ID,Embodied,Dimension,Task,Expected,TrialNum,Result,Correct,ResponseTime
ID,Embodied,Dimension,Task,Expected,TrialNum,Result,Correct,ResponseTime
ID,Embodied,Dimension,Task,Expected,TrialNum,Result,Correct,ResponseTime
ID,Embodied,Dimension,Task,Expected,TrialNum,Result,Correct,ResponseTime
ID,Embodied,Dimension,Task,Expected,TrialNum,Result,Correct,ResponseTime
ID,Embodied,Dimension,Task,Expected,TrialNum,Result,Correct,ResponseTime
ID,Embodied,Dimension,Task,Expected,TrialNum,Result,Correct,ResponseTime
ID,Embodied,Dimension,Task,Expected,TrialNum,Result,Correct,ResponseTime
ID,Embodied,Dimension,Task,Expected,TrialNum,Result,Correct,ResponseTime
ID,Embodied,Dimension,Task,Expected,TrialNum,Result,Correct,ResponseTime
ID,Embodied,Dimension,Task,Expected,TrialNum,Result,Correct,ResponseTime
4,emb,3,correlation,Horonium&Radianite,1,Radianite,False,499.3073
4,emb,3,correlation,Seastone&Space Titanium,2,,False,2.489959
4,emb,2,correlation,Divinium (E115)&Silverstone,3,,False,0.8485283
4,emb,2,correlation,Aether&Hihiirokane,4,,False,0.556713
4,emb,3,correlation,Eridium&Harbenite&Scrith,5,,False,0.9461039
4,emb,3,correlation,Celestial Bronze&Supermanium&The Core,6,,False,0.3617024
ID,Embodied,Dimension,Task,Expected,TrialNum,Result,Correct,ResponseTime
ID,Embodied,Dimension,Task,Expected,TrialNum,Result,Correct,ResponseTime
ID,Embodied,Dimension,Task,Expected,TrialNum,Result,Correct,ResponseTime
4,emb,3,correlation,Horonium&Radianite,1,Afraidium,False,32.46706
4,emb,3,correlation,Seastone&Space Titanium,2,,False,0
ID,Embodied,Dimension,Task,Expected,TrialNum,Result,Correct,ResponseTime
ID,Embodied,Dimension,Task,Expected,TrialNum,Result,Correct,ResponseTime
ID,Embodied,Dimension,Task,Expected,TrialNum,Result,Correct,ResponseTime
ID,Embodied,Dimension,Task,Expected,TrialNum,Result,Correct,ResponseTime
ID,Embodied,Dimension,Task,Expected,TrialNum,Result,Correct,ResponseTime
ID,Embodied,Dimension,Task,Expected,TrialNum,Result,Correct,ResponseTime
ID,Embodied,Dimension,Task,Expected,TrialNum,Result,Correct,ResponseTime
ID,Embodied,Dimension,Task,Expected,TrialNum,Result,Correct,ResponseTime
ID,Embodied,Dimension,Task,Expected,TrialNum,Result,Correct,ResponseTime
ID,Embodied,Dimension,Task,Expected,TrialNum,Result,Correct,ResponseTime
ID,Embodied,Dimension,Task,Expected,TrialNum,Result,Correct,ResponseTime
ID,Embodied,Dimension,Task,Expected,TrialNum,Result,Correct,ResponseTime
ID,Embodied,Dimension,Task,Expected,TrialNum,Result,Correct,ResponseTime
ID,Embodied,Dimension,Task,Expected,TrialNum,Result,Correct,ResponseTime
ID,Embodied,Dimension,Task,Expected,TrialNum,Result,Correct,ResponseTime
ID,Embodied,Dimension,Task,Expected,TrialNum,Result,Correct,ResponseTime
ID,Embodied,Dimension,Task,Expected,TrialNum,Result,Correct,ResponseTime
ID,Embodied,Dimension,Task,Expected,TrialNum,Result,Correct,ResponseTime
ID,Embodied,Dimension,Task,Expected,TrialNum,Result,Correct,ResponseTime
ID,Embodied,Dimension,Task,Expected,TrialNum,Result,Correct,ResponseTime
ID,Embodied,Dimension,Task,Expected,TrialNum,Result,Correct,ResponseTime
ID,Embodied,Dimension,Task,Expected,TrialNum,Result,Correct,ResponseTime
ID,Embodied,Dimension,Task,Expected,TrialNum,Result,Correct,ResponseTime
ID,Embodied,Dimension,Task,Expected,TrialNum,Result,Correct,ResponseTime
ID,Embodied,Dimension,Task,Expected,TrialNum,Result,Correct,ResponseTime
ID,Embodied,Dimension,Task,Expected,TrialNum,Result,Correct,ResponseTime
ID,Embodied,Dimension,Task,Expected,TrialNum,Result,Correct,ResponseTime
ID,Embodied,Dimension,Task,Expected,TrialNum,Result,Correct,ResponseTime
ID,Embodied,Dimension,Task,Expected,TrialNum,Result,Correct,ResponseTime
ID,Embodied,Dimension,Task,Expected,TrialNum,Result,Correct,ResponseTime
ID,Embodied,Dimension,Task,Expected,TrialNum,Result,Correct,ResponseTime
ID,Embodied,Dimension,Task,Expected,TrialNum,Result,Correct,ResponseTime
ID,Embodied,Dimension,Task,Expected,TrialNum,Result,Correct,ResponseTime
ID,Embodied,Dimension,Task,Expected,TrialNum,Result,Correct,ResponseTime
ID,Embodied,Dimension,Task,Expected,TrialNum,Result,Correct,ResponseTime
ID,Embodied,Dimension,Task,Expected,TrialNum,Result,Correct,ResponseTime
ID,Embodied,Dimension,Task,Expected,TrialNum,Result,Correct,ResponseTime
ID,Embodied,Dimension,Task,Expected,TrialNum,Result,Correct,ResponseTime
ID,Embodied,Dimension,Task,Expected,TrialNum,Result,Correct,ResponseTime
ID,Embodied,Dimension,Task,Expected,TrialNum,Result,Correct,ResponseTime
ID,Embodied,Dimension,Task,Expected,TrialNum,Result,Correct,ResponseTime
ID,Embodied,Dimension,Task,Expected,TrialNum,Result,Correct,ResponseTime
ID,Embodied,Dimension,Task,Expected,TrialNum,Result,Correct,ResponseTime
ID,Embodied,Dimension,Task,Expected,TrialNum,Result,Correct,ResponseTime
ID,Embodied,Dimension,Task,Expected,TrialNum,Result,Correct,ResponseTime
ID,Embodied,Dimension,Task,Expected,TrialNum,Result,Correct,ResponseTime
ID,Embodied,Dimension,Task,Expected,TrialNum,Result,Correct,ResponseTime
ID,Embodied,Dimension,Task,Expected,TrialNum,Result,Correct,ResponseTime
ID,Embodied,Dimension,Task,Expected,TrialNum,Result,Correct,ResponseTime
ID,Embodied,Dimension,Task,Expected,TrialNum,Result,Correct,ResponseTime
ID,Embodied,Dimension,Task,Expected,TrialNum,Result,Correct,ResponseTime
ID,Embodied,Dimension,Task,Expected,TrialNum,Result,Correct,ResponseTime
4,emb,3,correlation,Horonium&Radianite,1,Horonium,False,16.82558
ID,Embodied,Dimension,Task,Expected,TrialNum,Result,Correct,ResponseTime
4,emb,3,correlation,Horonium&Radianite,1,Afraidium,False,6.170561
ID,Embodied,Dimension,Task,Expected,TrialNum,Result,Correct,ResponseTime
ID,Embodied,Dimension,Task,Expected,TrialNum,Result,Correct,ResponseTime
4,emb,3,correlation,Horonium&Radianite,1,Administratium,False,7.704302
ID,Embodied,Dimension,Task,Expected,TrialNum,Result,Correct,ResponseTime
4,emb,3,correlation,Horonium&Radianite,1,Horonium,False,3.401959
ID,Embodied,Dimension,Task,Expected,TrialNum,Result,Correct,ResponseTime
ID,Embodied,Dimension,Task,Expected,TrialNum,Result,Correct,ResponseTime
4,emb,3,correlation,Horonium&Radianite,1,Administratium&Versamina,False,8.562243
ID,Embodied,Dimension,Task,Expected,TrialNum,Result,Correct,ResponseTime
ID,Embodied,Dimension,Task,Expected,TrialNum,Result,Correct,ResponseTime
ID,Embodied,Dimension,Task,Expected,TrialNum,Result,Correct,ResponseTime
ID,Embodied,Dimension,Task,Expected,TrialNum,Result,Correct,ResponseTime
4,emb,3,correlation,Horonium&Radianite,1,Administratium&Afraidium,False,11.48897
ID,Embodied,Dimension,Task,Expected,TrialNum,Result,Correct,ResponseTime
ID,Embodied,Dimension,Task,Expected,TrialNum,Result,Correct,ResponseTime
4,emb,3,correlation,Horonium&Radianite,1,Afraidium&Horonium,False,11.26829
4,emb,3,correlation,Seastone&Space Titanium,2,Bonnevillium&Seastone,False,3.538184
ID,Embodied,Dimension,Task,Expected,TrialNum,Result,Correct,ResponseTime
ID,Embodied,Dimension,Task,Expected,TrialNum,Result,Correct,ResponseTime
ID,Embodied,Dimension,Task,Expected,TrialNum,Result,Correct,ResponseTime
ID,Embodied,Dimension,Task,Expected,TrialNum,Result,Correct,ResponseTime
ID,Embodied,Dimension,Task,Expected,TrialNum,Result,Correct,ResponseTime
ID,Embodied,Dimension,Task,Expected,TrialNum,Result,Correct,ResponseTime
ID,Embodied,Dimension,Task,Expected,TrialNum,Result,Correct,ResponseTime
ID,Embodied,Dimension,Task,Expected,TrialNum,Result,Correct,ResponseTime
ID,Embodied,Dimension,Task,Expected,TrialNum,Result,Correct,ResponseTime
ID,Embodied,Dimension,Task,Expected,TrialNum,Result,Correct,ResponseTime
ID,Embodied,Dimension,Task,Expected,TrialNum,Result,Correct,ResponseTime
ID,Embodied,Dimension,Task,Expected,TrialNum,Result,Correct,ResponseTime
ID,Embodied,Dimension,Task,Expected,TrialNum,Result,Correct,ResponseTime
ID,Embodied,Dimension,Task,Expected,TrialNum,Result,Correct,ResponseTime
4,emb,3,correlation,Horonium&Radianite,1,Administratium&Radianite&Versamina,False,19.87859
ID,Embodied,Dimension,Task,Expected,TrialNum,Result,Correct,ResponseTime
ID,Embodied,Dimension,Task,Expected,TrialNum,Result,Correct,ResponseTime
ID,Embodied,Dimension,Task,Expected,TrialNum,Result,Correct,ResponseTime
ID,Embodied,Dimension,Task,Expected,TrialNum,Result,Correct,ResponseTime
ID,Embodied,Dimension,Task,Expected,TrialNum,Result,Correct,ResponseTime
ID,Embodied,Dimension,Task,Expected,TrialNum,Result,Correct,ResponseTime
ID,Embodied,Dimension,Task,Expected,TrialNum,Result,Correct,ResponseTime
ID,Embodied,Dimension,Task,Expected,TrialNum,Result,Correct,ResponseTime
ID,Embodied,Dimension,Task,Expected,TrialNum,Result,Correct,ResponseTime
ID,Embodied,Dimension,Task,Expected,TrialNum,Result,Correct,ResponseTime
ID,Embodied,Dimension,Task,Expected,TrialNum,Result,Correct,ResponseTime
ID,Embodied,Dimension,Task,Expected,TrialNum,Result,Correct,ResponseTime
ID,Embodied,Dimension,Task,Expected,TrialNum,Result,Correct,ResponseTime
ID,Embodied,Dimension,Task,Expected,TrialNum,Result,Correct,ResponseTime
ID,Embodied,Dimension,Task,Expected,TrialNum,Result,Correct,ResponseTime
ID,Embodied,Dimension,Task,Expected,TrialNum,Result,Correct,ResponseTime
ID,Embodied,Dimension,Task,Expected,TrialNum,Result,Correct,ResponseTime
4,emb,3,correlation,Horonium&Radianite,1,Administratium&Afraidium&Versamina,False,171.3659
4,emb,3,correlation,Seastone&Space Titanium,2,Bonnevillium&Seastone&Space Titanium,False,3.738663
4,emb,2,correlation,Divinium (E115)&Silverstone,3,Dark Metal&Divinium (E115),False,1.47338
4,emb,2,correlation,Aether&Hihiirokane,4,Collapsium&Phostlite,False,1.251034
4,emb,3,correlation,Eridium&Harbenite&Scrith,5,Arsonium&Eridium&Scrith,False,3.126991
4,emb,3,correlation,Celestial Bronze&Supermanium&The Core,6,Celestial Bronze&Supermanium&The Core,True,3.098773
ID,Embodied,Dimension,Task,Expected,TrialNum,Result,Correct,ResponseTime
ID,Embodied,Dimension,Task,Expected,TrialNum,Result,Correct,ResponseTime
4,emb,3,correlation,Horonium&Radianite,1,Administratium&Afraidium&Versamina,False,19.19667
ID,Embodied,Dimension,Task,Expected,TrialNum,Result,Correct,ResponseTime
4,emb,3,correlation,Horonium&Radianite,1,Administratium&Radianite&Versamina,False,34.15667
ID,Embodied,Dimension,Task,Expected,TrialNum,Result,Correct,ResponseTime
ID,Embodied,Dimension,Task,Expected,TrialNum,Result,Correct,ResponseTime
4,emb,3,correlation,Horonium&Radianite,1,Afraidium&Horonium&Radianite,False,21.75471
4,emb,3,correlation,Seastone&Space Titanium,2,Seastone&Space Titanium&Valkyrium,False,4.878384
4,emb,2,correlation,Divinium (E115)&Silverstone,3,Dark Metal&Divinium (E115),False,3.405445
4,emb,2,correlation,Aether&Hihiirokane,4,Aether&Phostlite,False,14.11338
ID,Embodied,Dimension,Task,Expected,TrialNum,Result,Correct,ResponseTime
4,emb,3,correlation,Horonium&Radianite,1,Administratium&Horonium&Versamina,False,9.237397
4,emb,3,correlation,Seastone&Space Titanium,2,Orichalcum&Space Titanium&Valkyrium,False,9.846881
4,emb,2,correlation,Divinium (E115)&Silverstone,3,Dark Metal&Divinium (E115),False,1.837687
